Folder: DIPLOMA/ELECTROCHEM_DATA/06.01.2022 ПК224 BF4 1e-4 M TBABF4 0,1 M MeCN 1 mm anode 0,6 V

File: CA
Corrected time (s)	WE(1).Current (A)	WE(1).Potential (V)	Time (s)	Index
0	0.000484894	0.79895	15.7684	1
30	0.000458405	0.799255	45.7684	4
60	0.000431732	0.799255	75.7684	7
90	0.000387421	0.79895	105.768	10
120	0.000370789	0.799866	135.768	13
150	0.000346252	0.799561	165.768	16
180	0.00031366	0.799561	195.768	19
210	0.000300995	0.799255	225.768	22
240	0.000296204	0.799255	255.768	25
270	0.000284729	0.799255	285.768	28
300	0.000265015	0.799561	315.768	31
330	0.000244598	0.799561	345.768	34
360	0.000251923	0.799561	375.768	37
390	0.000240753	0.800171	405.768	40
420	0.000234314	0.799866	435.768	43
450	0.000215454	0.799866	465.768	46
480	0.000204926	0.799561	495.768	49
510	0.000205292	0.799255	525.768	52
540	0.00018808	0.799561	555.768	55
570	0.000178772	0.799866	585.768	58
600	0.000170685	0.800171	615.768	61
630	0.000166229	0.799866	645.768	64
660	0.000165619	0.79895	675.768	67
690	0.000149902	0.799866	705.768	70
720	0.000150421	0.799866	735.768	73
750	0.000135162	0.799561	765.768	76
780	0.000149475	0.799866	795.768	79
810	0.00012619	0.799561	825.768	82
840	0.000122742	0.799255	855.768	85
870	0.000119598	0.799561	885.768	88
900	0.0001203	0.799561	915.768	91
930	0.000121765	0.799255	945.768	94
960	0.000108673	0.799866	975.768	97
990	0.00010788	0.799866	1005.77	100
1020	0.000103394	0.799866	1035.77	103
1050	9.94873e-05	0.79895	1065.77	106
1080	0.000101227	0.799255	1095.77	109
1110	9.55811e-05	0.799255	1125.77	112
1140	9.35974e-05	0.799255	1155.77	115
1170	8.53882e-05	0.799255	1185.77	118
1200	9.06677e-05	0.799866	1215.77	121
1230	8.6853e-05	0.799866	1245.77	124
1260	8.37402e-05	0.799561	1275.77	127
1290	8.4259e-05	0.799255	1305.77	130
1320	8.21838e-05	0.799561	1335.77	133
1350	7.77893e-05	0.799866	1365.77	136
1380	7.45544e-05	0.799866	1395.77	139
1410	7.64771e-05	0.799561	1425.77	142
1440	7.51648e-05	0.800171	1455.77	145
1470	6.7749e-05	0.799561	1485.77	148
1500	7.16248e-05	0.799561	1515.77	151
1530	7.27844e-05	0.799255	1545.77	154
1560	7.32117e-05	0.79895	1575.77	157
1590	6.74744e-05	0.799866	1605.77	160
1620	6.66809e-05	0.799866	1635.77	163
1650	6.92749e-05	0.799866	1665.77	166
1680	6.60706e-05	0.799866	1695.77	169
1710	6.48499e-05	0.799866	1725.77	172
1740	6.22864e-05	0.799561	1755.77	175
1770	6.47278e-05	0.79895	1785.77	178
1800	6.23779e-05	0.799561	1815.77	181
1830	6.29272e-05	0.799866	1845.77	184
1860	6.12793e-05	0.799255	1875.77	187
1890	5.85327e-05	0.800476	1905.77	190
1920	5.6488e-05	0.799561	1935.77	193
1950	5.72815e-05	0.799255	1965.77	196
1980	5.71289e-05	0.799561	1995.77	199
2010	5.81055e-05	0.799255	2025.77	202
2040	5.54199e-05	0.799561	2055.77	205
2070	5.57861e-05	0.799561	2085.77	208
2100	5.23987e-05	0.799561	2115.77	211
2130	5.29785e-05	0.799866	2145.77	214
2160	5.10864e-05	0.799561	2175.77	217
2190	5.24292e-05	0.799561	2205.77	220
2220	4.93164e-05	0.799866	2235.77	223
2250	5.14526e-05	0.799561	2265.77	226
2280	4.99268e-05	0.799866	2295.77	229
2310	4.67682e-05	0.799866	2325.77	232
2340	4.56177e-05	0.799866	2355.77	235
2370	4.48486e-05	0.799255	2385.77	238
2400	4.54712e-05	0.799866	2415.77	241
2430	4.33044e-05	0.799561	2445.77	244
2460	4.31213e-05	0.799561	2475.77	247
2490	4.38995e-05	0.799561	2505.77	250
2520	4.41071e-05	0.799866	2535.77	253
2550	4.23431e-05	0.799561	2565.77	256
2580	4.11499e-05	0.799561	2595.77	259
2610	3.93829e-05	0.799561	2625.77	262
2640	3.84613e-05	0.799255	2655.77	265
2670	3.74451e-05	0.799561	2685.77	268
2700	3.85529e-05	0.799866	2715.77	271
2730	3.82446e-05	0.799561	2745.77	274
2760	3.70483e-05	0.799561	2775.77	277
2790	3.72101e-05	0.800171	2805.77	280
2820	3.74054e-05	0.799561	2835.77	283
2850	3.65875e-05	0.799255	2865.77	286
2880	3.53546e-05	0.799561	2895.77	289
2910	3.42407e-05	0.799561	2925.77	292
2940	3.57361e-05	0.800171	2955.77	295
2970	3.43445e-05	0.799561	2985.77	298
3000	3.38867e-05	0.799866	3015.77	301
3030	3.39569e-05	0.799866	3045.77	304
3060	3.33893e-05	0.799866	3075.77	307
3090	3.29681e-05	0.799561	3105.77	310
3120	3.20984e-05	0.798645	3135.77	313
3150	3.21991e-05	0.799255	3165.77	316
3180	2.97272e-05	0.799561	3195.77	319
3210	3.07251e-05	0.799561	3225.77	322
3240	2.94525e-05	0.800476	3255.77	325
3270	2.99408e-05	0.799255	3285.77	328
3300	2.99286e-05	0.799561	3315.77	331
3330	2.95929e-05	0.799866	3345.77	334
3360	2.83112e-05	0.799561	3375.77	337
3390	2.72003e-05	0.799561	3405.77	340
3420	2.88422e-05	0.799866	3435.77	343
3450	2.71729e-05	0.800171	3465.77	346
3480	2.83295e-05	0.799561	3495.77	349
3510	2.65778e-05	0.799255	3525.77	352
3540	2.59705e-05	0.799561	3555.77	355
3570	2.565e-05	0.799561	3585.77	358
3600	2.69318e-05	0.799255	3615.77	361
3630	2.52563e-05	0.799255	3645.77	364
3660	2.50336e-05	0.799866	3675.77	367
3690	2.62543e-05	0.799255	3705.77	370
3720	2.60132e-05	0.799561	3735.77	373
3750	2.48779e-05	0.799255	3765.77	376
3780	2.4472e-05	0.799866	3795.77	379
3810	2.37122e-05	0.799255	3825.77	382
3840	2.41333e-05	0.799255	3855.77	385
3870	2.4469e-05	0.799561	3885.77	388
3900	2.38861e-05	0.799866	3915.77	391
3930	2.38922e-05	0.79895	3945.77	394
3960	2.25311e-05	0.799866	3975.77	397
3990	2.25891e-05	0.799561	4005.77	400
4020	2.26379e-05	0.799866	4035.77	403
4050	2.21649e-05	0.799561	4065.77	406
4080	2.23145e-05	0.799866	4095.77	409
4110	2.15027e-05	0.800476	4125.77	412
4140	2.08923e-05	0.799255	4155.77	415
4170	2.10754e-05	0.799255	4185.77	418
4200	2.16095e-05	0.799561	4215.77	421
4230	2.17438e-05	0.799255	4245.77	424
4260	1.99066e-05	0.799561	4275.77	427
4290	2.05688e-05	0.799866	4305.77	430
4320	2.07855e-05	0.799561	4335.77	433
4350	2.052e-05	0.799255	4365.77	436
4380	1.96014e-05	0.799866	4395.77	439
4410	2.02362e-05	0.799255	4425.77	442
4440	1.96564e-05	0.800476	4455.77	445
4470	1.91833e-05	0.799561	4485.77	448
4500	1.89575e-05	0.799255	4515.77	451
4530	1.96777e-05	0.800171	4545.77	454
4560	1.84509e-05	0.799866	4575.77	457
4590	1.87134e-05	0.799255	4605.77	460
4620	1.80176e-05	0.800171	4635.77	463
4650	1.83838e-05	0.799866	4665.77	466
4680	1.78467e-05	0.79895	4695.77	469
4710	1.71356e-05	0.799255	4725.77	472
4740	1.75598e-05	0.799561	4755.77	475
4770	1.74988e-05	0.799561	4785.77	478
4800	1.76849e-05	0.799866	4815.77	481
4830	1.72852e-05	0.799866	4845.77	484
4860	1.67328e-05	0.800171	4875.77	487
4890	1.7572e-05	0.799866	4905.77	490
4920	1.69342e-05	0.799255	4935.77	493
4950	1.60767e-05	0.800171	4965.77	496
4980	1.64459e-05	0.79895	4995.77	499
5010	1.6098e-05	0.800171	5025.77	502
5040	1.61469e-05	0.799255	5055.77	505
5070	1.62018e-05	0.799561	5085.77	508
5100	1.5448e-05	0.799561	5115.77	511
5130	1.55701e-05	0.799866	5145.77	514
5160	1.55334e-05	0.799866	5175.77	517
5190	1.5274e-05	0.799255	5205.77	520
5220	1.484375E-05	0.799866	5235.77	523
5250	1.51337e-05	0.799561	5265.77	526
5280	1.53351e-05	0.799561	5295.77	529
5310	1.47034e-05	0.799255	5325.77	532
5340	1.48315e-05	0.799561	5355.77	535
5370	1.39496e-05	0.799561	5385.77	538
5400	1.51001e-05	0.799561	5415.77	541
5430	1.46759e-05	0.799561	5445.77	544
5460	1.43402e-05	0.799561	5475.77	547
5490	1.41449e-05	0.799561	5505.77	550
5520	1.45416e-05	0.799255	5535.77	553
5550	1.37909e-05	0.799561	5565.77	556
5580	1.38e-05	0.799561	5595.77	559
5610	1.38397e-05	0.799866	5625.77	562
5640	1.34552e-05	0.799866	5655.77	565
5670	1.30585e-05	0.799866	5685.77	568
5700	1.34186e-05	0.799866	5715.77	571
5730	1.34735e-05	0.799866	5745.77	574
5760	1.32385e-05	0.799866	5775.77	577
5790	1.29242e-05	0.799866	5805.77	580
5820	1.31989e-05	0.799255	5835.77	583
5850	1.26587e-05	0.799866	5865.77	586
5880	1.2619e-05	0.800171	5895.77	589
5910	1.328125E-05	0.799866	5925.77	592
5940	1.27014e-05	0.800171	5955.77	595
5970	1.24695e-05	0.799866	5985.77	598
6000	1.17371e-05	0.799255	6015.77	601
6030	1.23718e-05	0.799561	6045.77	604
6060	1.26129e-05	0.799866	6075.77	607
6090	1.37268e-05	0.799561	6105.77	610
6120	2.32117e-05	0.799866	6135.77	613
6150	2.54578e-05	0.800171	6165.77	616
6180	2.3996e-05	0.799561	6195.77	619
6210	2.46033e-05	0.800171	6225.77	622
6240	2.4646e-05	0.799561	6255.77	625
6270	2.34039e-05	0.799561	6285.77	628
6300	2.35535e-05	0.799866	6315.77	631
6310	2.24518e-05	0.799561	6325.77	632