Folder: DIPLOMA/ELECTROCHEM_DATA/06.08.2021 ПК220 BF4 1e-4 M TBABF4 0,1 M MeCN 1 mm anode +0.8 V

File: CA PK220 BF4 anode -0,8 V
Time (s);WE(1).Potential (V);WE(1).Current (A);Corrected time (s);Index
16.1772;0.800171;0.000447937;0;1
36.1772;0.799561;0.000438812;20;3
56.1772;0.799866;0.000422821;40;5
76.1772;0.800476;0.000398041;60;7
96.1772;0.800171;0.000394226;80;9
116.177;0.800171;0.00038504;100;11
136.177;0.799866;0.000364807;120;13
156.177;0.799561;0.000358826;140;15
176.177;0.799866;0.000364319;160;17
196.177;0.799255;0.000346985;180;19
216.177;0.799255;0.000331512;200;21
236.177;0.799561;0.000327667;220;23
256.177;0.799866;0.000315887;240;25
276.177;0.799866;0.000310425;260;27
296.177;0.799866;0.000308197;280;29
316.177;0.799866;0.000302856;300;31
336.177;0.799866;0.000290253;320;33
356.177;0.799866;0.000285553;340;35
376.177;0.799866;0.000283661;360;37
396.177;0.799255;0.000275146;380;39
416.177;0.800476;0.0002612;400;41
436.177;0.800171;0.000261292;420;43
456.177;0.799255;0.000253601;440;45
476.177;0.800171;0.000257507;460;47
496.177;0.799866;0.000248657;480;49
516.177;0.799866;0.000246857;500;51
536.177;0.799866;0.000237274;520;53
556.177;0.800171;0.000232941;540;55
576.177;0.799866;0.000228851;560;57
596.177;0.800171;0.000225647;580;59
616.177;0.799866;0.000214905;600;61
636.177;0.799561;0.000213715;620;63
656.177;0.799561;0.000209564;640;65
676.177;0.800171;0.000209412;660;67
696.177;0.800476;0.000207581;680;69
716.177;0.799866;0.000197083;700;71
736.177;0.799866;0.000192566;720;73
756.177;0.800171;0.000192352;740;75
776.177;0.799866;0.000191956;760;77
796.177;0.799866;0.000182495;780;79
816.177;0.799561;0.000182922;800;81
836.177;0.799561;0.000175476;820;83
856.177;0.799561;0.000176758;840;85
876.177;0.799866;0.000180634;860;87
896.177;0.799866;0.000173676;880;89
916.177;0.800171;0.000172455;900;91
936.177;0.799866;0.00016629;920;93
956.177;0.800171;0.000170105;940;95
976.177;0.799561;0.000163025;960;97
996.177;0.799866;0.000159485;980;99
1016.18;0.799255;0.000160797;1000;101
1036.18;0.799561;0.000155396;1020;103
1056.18;0.799561;0.000151978;1040;105
1076.18;0.799866;0.000153656;1060;107
1096.18;0.799561;0.000151123;1080;109
1116.18;0.799866;0.000148132;1100;111
1136.18;0.799561;0.000145355;1120;113
1156.18;0.799866;0.000143951;1140;115
1176.18;0.799866;0.000137817;1160;117
1196.18;0.799866;0.000136292;1180;119
1216.18;0.799866;0.000137817;1200;121
1236.18;0.799866;0.000134705;1220;123
1256.18;0.799255;0.000131226;1240;125
1276.18;0.799255;0.000130615;1260;127
1296.18;0.800476;0.00012619;1280;129
1316.18;0.799255;0.000126099;1300;131
1336.18;0.800171;0.000125214;1320;133
1356.18;0.800171;0.000121033;1340;135
1376.18;0.799561;0.000119293;1360;137
1396.18;0.800171;0.000118378;1380;139
1416.18;0.799866;0.000115814;1400;141
1436.18;0.800171;0.000115845;1420;143
1456.18;0.800171;0.0001138;1440;145
1476.18;0.799255;0.000110992;1460;147
1496.18;0.799866;0.000111603;1480;149
1516.18;0.799866;0.000108673;1500;151
1536.18;0.800171;0.000107086;1520;153
1556.18;0.799561;0.000104279;1540;155
1576.18;0.800476;0.000103821;1560;157
1596.18;0.800476;0.000102325;1580;159
1616.18;0.800171;0.000100647;1600;161
1636.18;0.799866;9.8999e-05;1620;163
1656.18;0.799255;9.89685e-05;1640;165
1676.18;0.799561;9.53979e-05;1660;167
1696.18;0.799866;9.40857e-05;1680;169
1716.18;0.799866;9.32617e-05;1700;171
1736.18;0.801086;9.30481e-05;1720;173
1756.18;0.799866;9.14917e-05;1740;175
1776.18;0.799255;8.86536e-05;1760;177
1796.18;0.799866;8.89587e-05;1780;179
1816.18;0.799866;8.70972e-05;1800;181
1836.18;0.79895;8.83179e-05;1820;183
1856.18;0.800171;8.64563e-05;1840;185
1876.18;0.800476;8.36182e-05;1860;187
1896.18;0.801086;8.23975e-05;1880;189
1916.18;0.798645;8.23059e-05;1900;191
1936.18;0.799866;8.30994e-05;1920;193
1956.18;0.800171;8.00476e-05;1940;195
1976.18;0.798645;7.97729e-05;1960;197
1996.18;0.799255;8.05054e-05;1980;199
2016.18;0.800781;7.85217e-05;2000;201
2036.18;0.799866;7.76978e-05;2020;203
2056.18;0.799255;7.69958e-05;2040;205
2076.18;0.800781;7.48901e-05;2060;207
2096.18;0.800476;7.34558e-05;2080;209
2116.18;0.799866;7.50122e-05;2100;211
2136.18;0.799561;7.27234e-05;2120;213
2156.18;0.799255;7.15027e-05;2140;215
2176.18;0.798645;7.29065e-05;2160;217
2196.18;0.799561;7.22351e-05;2180;219
2216.18;0.799866;7.10449e-05;2200;221
2236.18;0.79895;7.0282e-05;2220;223
2256.18;0.799866;6.92139e-05;2240;225
2276.18;0.800781;6.93359e-05;2260;227
2296.18;0.799866;6.77795e-05;2280;229
2316.18;0.798645;6.89697e-05;2300;231
2336.18;0.799255;6.75964e-05;2320;233
2356.18;0.799866;6.640625E-05;2340;235
2376.18;0.79895;6.58569e-05;2360;237
2396.18;0.800171;6.55823e-05;2380;239
2416.18;0.800476;6.53381e-05;2400;241
2436.18;0.79895;6.56128e-05;2420;243
2456.18;0.800781;6.38733e-05;2440;245
2476.18;0.800171;6.28357e-05;2460;247
2496.18;0.800171;6.58569e-05;2480;249
2516.18;0.800476;6.12183e-05;2500;251
2536.18;0.800781;6.26831e-05;2520;253
2556.18;0.801086;6.07605e-05;2540;255
2576.18;0.79895;5.96619e-05;2560;257
2596.18;0.799255;6.15234e-05;2580;259
2616.18;0.800476;6.03638e-05;2600;261
2636.18;0.799866;6.1615e-05;2620;263
2656.18;0.799255;5.98145e-05;2640;265
2676.18;0.799255;5.88379e-05;2660;267
2696.18;0.79895;5.92651e-05;2680;269
2716.18;0.79895;5.85327e-05;2700;271
2736.18;0.799561;5.77698e-05;2720;273
2756.18;0.799561;5.67932e-05;2740;275
2776.18;0.799561;5.8136e-05;2760;277
2796.18;0.799866;5.72205e-05;2780;279
2816.18;0.799561;5.63049e-05;2800;281
2836.18;0.800476;5.56946e-05;2820;283
2856.18;0.799255;5.45349e-05;2840;285
2876.18;0.79895;5.41382e-05;2860;287
2896.18;0.798645;5.84717e-05;2880;289
2916.18;0.800476;5.43518e-05;2900;291
2936.18;0.800171;5.31921e-05;2920;293
2956.18;0.800476;5.41687e-05;2940;295
2976.18;0.799866;5.43213e-05;2960;297
2996.18;0.800476;5.31311e-05;2980;299
3016.18;0.800476;5.22461e-05;3000;301
3036.18;0.799561;5.18799e-05;3020;303
3056.18;0.799255;5.20935e-05;3040;305
3076.18;0.800171;5.09338e-05;3060;307
3096.18;0.800476;5.13611e-05;3080;309
3116.18;0.799561;5.15442e-05;3100;311
3136.18;0.800476;5.05981e-05;3120;313
3156.18;0.800476;4.98352e-05;3140;315
3176.18;0.799561;5.13e-05;3160;317
3196.18;0.799255;4.96826e-05;3180;319
3216.18;0.799866;4.98047e-05;3200;321
3236.18;0.800476;5.01404e-05;3220;323
3256.18;0.800171;4.87366e-05;3240;325
3276.18;0.799255;4.953e-05;3260;327
3296.18;0.799561;4.95911e-05;3280;329
3316.18;0.800476;4.81873e-05;3300;331
3336.18;0.800476;4.76379e-05;3320;333
3356.18;0.799866;4.88586e-05;3340;335
3376.18;0.800171;4.65393e-05;3360;337
3396.18;0.800476;4.6936e-05;3380;339
3416.18;0.799561;4.63257e-05;3400;341
3436.18;0.799255;4.74854e-05;3420;343
3456.18;0.800476;4.57153e-05;3440;345
3476.18;0.800171;5.07507e-05;3460;347
3496.18;0.799255;4.67834e-05;3480;349
3516.18;0.799561;4.66919e-05;3500;351
3536.18;0.799866;4.55627e-05;3520;353
3556.18;0.800476;4.54102e-05;3540;355
3576.18;0.800171;4.59595e-05;3560;357
3596.18;0.799866;4.60205e-05;3580;359
3616.18;0.79895;4.60815e-05;3600;361
3636.18;0.799866;4.62952e-05;3620;363
3656.18;0.799255;4.599e-05;3640;365
3676.18;0.800476;4.49524e-05;3660;367
3696.18;0.799561;4.48608e-05;3680;369
3716.18;0.79895;4.38843e-05;3700;371
3736.18;0.800171;4.40063e-05;3720;373
3756.18;0.800171;4.4281e-05;3740;375
3776.18;0.799255;4.33044e-05;3760;377
3796.18;0.799866;4.39453e-05;3780;379
3816.18;0.800781;4.32739e-05;3800;381
3836.18;0.799866;4.30908e-05;3820;383
3856.18;0.800476;4.27856e-05;3840;385
3876.18;0.799866;4.27551e-05;3860;387
3896.18;0.800171;4.26025e-05;3880;389
3916.18;0.800171;4.25415e-05;3900;391
3936.18;0.799866;4.20837e-05;3920;393
3956.18;0.799866;4.20227e-05;3940;395
3976.18;0.799255;4.1626e-05;3960;397
3996.18;0.800476;4.16565e-05;3980;399
4016.18;0.799866;4.27856e-05;4000;401
4036.18;0.800171;4.14124e-05;4020;403
4056.18;0.800171;4.11987e-05;4040;405
4076.18;0.799255;4.06799e-05;4060;407
4096.18;0.799866;4.01001e-05;4080;409
4116.18;0.799866;4.04968e-05;4100;411
4136.18;0.799255;4.02527e-05;4120;413
4156.18;0.799561;3.9856e-05;4140;415
4176.18;0.800171;3.97644e-05;4160;417
4196.18;0.799561;4.01611e-05;4180;419
4216.18;0.800781;4.05884e-05;4200;421
4236.18;0.799866;3.92456e-05;4220;423
4256.18;0.800476;3.93066e-05;4240;425
4276.18;0.799866;3.91235e-05;4260;427
4296.18;0.800171;3.93982e-05;4280;429
4316.18;0.799866;3.95203e-05;4300;431
4326.18;0.799866;3.93372e-05;4310;432