Folder: DIPLOMA/ELECTROCHEM_DATA/09.12.2021 ПК341 BF4 1e-4 M TBABF4 0,1 M MeCN 1 mm anode 0,3 V

Note: ELECTROCHEM_DATA/09.12.2021 ПК341 BF4 1e-4 M TBABF4 0,1 M MeCN 1 mm anode 0,3 V/7 days.txt
315.000000 0.125568
316.000000 0.125307
317.000000 0.125164
318.000000 0.125279
319.000000 0.125766
320.000000 0.126947
321.000000 0.127876
322.000000 0.128196
323.000000 0.128639
324.000000 0.128910
325.000000 0.129703
326.000000 0.130628
327.000000 0.130737
328.000000 0.131007
329.000000 0.132026
330.000000 0.133133
331.000000 0.134225
332.000000 0.135036
333.000000 0.136208
334.000000 0.137471
335.000000 0.137930
336.000000 0.138393
337.000000 0.139405
338.000000 0.140832
339.000000 0.141853
340.000000 0.143045
341.000000 0.144677
342.000000 0.146019
343.000000 0.147496
344.000000 0.149242
345.000000 0.150796
346.000000 0.152374
347.000000 0.154288
348.000000 0.156184
349.000000 0.158127
350.000000 0.159964
351.000000 0.161622
352.000000 0.163467
353.000000 0.165530
354.000000 0.167715
355.000000 0.169716
356.000000 0.171904
357.000000 0.174459
358.000000 0.177000
359.000000 0.179619
360.000000 0.182287
361.000000 0.184734
362.000000 0.187121
363.000000 0.189847
364.000000 0.192759
365.000000 0.195558
366.000000 0.198358
367.000000 0.201490
368.000000 0.204560
369.000000 0.207287
370.000000 0.210379
371.000000 0.213656
372.000000 0.216384
373.000000 0.219103
374.000000 0.222492
375.000000 0.225650
376.000000 0.228466
377.000000 0.231519
378.000000 0.234817
379.000000 0.238531
380.000000 0.242086
381.000000 0.245273
382.000000 0.248618
383.000000 0.251617
384.000000 0.254044
385.000000 0.256430
386.000000 0.258919
387.000000 0.261335
388.000000 0.263475
389.000000 0.265469
390.000000 0.267653
391.000000 0.270140
392.000000 0.272329
393.000000 0.274107
394.000000 0.275642
395.000000 0.277055
396.000000 0.278636
397.000000 0.280011
398.000000 0.281359
399.000000 0.282912
400.000000 0.284185
401.000000 0.285250
402.000000 0.286479
403.000000 0.287728
404.000000 0.288651
405.000000 0.289637
406.000000 0.290692
407.000000 0.291335
408.000000 0.291818
409.000000 0.292216
410.000000 0.292232
411.000000 0.292233
412.000000 0.292478
413.000000 0.292492
414.000000 0.292396
415.000000 0.292240
416.000000 0.291857
417.000000 0.291405
418.000000 0.290739
419.000000 0.290021
420.000000 0.289309
421.000000 0.288429
422.000000 0.287726
423.000000 0.286978
424.000000 0.285991
425.000000 0.284789
426.000000 0.283507
427.000000 0.282537
428.000000 0.281569
429.000000 0.280366
430.000000 0.279065
431.000000 0.277816
432.000000 0.276610
433.000000 0.275220
434.000000 0.273682
435.000000 0.272338
436.000000 0.271026
437.000000 0.269567
438.000000 0.268123
439.000000 0.266746
440.000000 0.265227
441.000000 0.263635
442.000000 0.262213
443.000000 0.260772
444.000000 0.259222
445.000000 0.257628
446.000000 0.255891
447.000000 0.254106
448.000000 0.252374
449.000000 0.250567
450.000000 0.248763
451.000000 0.247029
452.000000 0.245265
453.000000 0.243454
454.000000 0.241564
455.000000 0.239633
456.000000 0.237680
457.000000 0.23566

File: CA
Corrected time (s)	WE(1).Potential (V)	Time (s)	WE(1).Current (A)	Index
0	0.30011	15.778	0.000246674	1
40	0.299927	55.778	0.000218353	5
80	0.299957	95.778	0.000213715	9
120	0.300079	135.778	0.000199005	13
160	0.300018	175.778	0.000197235	17
200	0.299896	215.778	0.000185913	21
240	0.299927	255.778	0.000188385	25
280	0.299896	295.778	0.000176941	29
320	0.299805	335.778	0.000170227	33
360	0.299988	375.778	0.000169861	37
400	0.299988	415.778	0.000160553	41
440	0.30014	455.778	0.000152191	45
480	0.30011	495.778	0.000144592	49
520	0.299988	535.778	0.000149963	53
560	0.299866	575.778	0.000140991	57
600	0.299988	615.778	0.000139526	61
640	0.299927	655.778	0.000130219	65
680	0.300049	695.778	0.000136902	69
720	0.299927	735.778	0.000121399	73
760	0.300049	775.778	0.000119324	77
800	0.300049	815.778	0.000113983	81
840	0.299927	855.778	0.000113068	85
880	0.299957	895.778	0.000110321	89
920	0.299988	935.778	0.000100403	93
960	0.30011	975.778	0.000100769	97
1000	0.30011	1015.78	9.92737e-05	101
1040	0.299866	1055.78	9.48792e-05	105
1080	0.299744	1095.78	9.95789e-05	109
1120	0.299866	1135.78	8.9386e-05	113
1160	0.299957	1175.78	8.20923e-05	117
1200	0.299896	1215.78	8.38318e-05	121
1240	0.299896	1255.78	8.04749e-05	125
1280	0.299957	1295.78	7.69958e-05	129
1320	0.299957	1335.78	7.66602e-05	133
1360	0.299835	1375.78	7.35779e-05	137
1400	0.299774	1415.78	7.03735e-05	141
1440	0.299957	1455.78	6.86646e-05	145
1480	0.299896	1495.78	6.71387e-05	149
1520	0.299835	1535.78	6.604e-05	153
1560	0.299957	1575.78	6.2439e-05	157
1600	0.299805	1615.78	5.86853e-05	161
1640	0.299805	1655.78	5.71899e-05	165
1680	0.299927	1695.78	5.86548e-05	169
1720	0.299774	1735.78	5.67017e-05	173
1760	0.299988	1775.78	5.36804e-05	177
1800	0.299805	1815.78	5.20325e-05	181
1840	0.299866	1855.78	4.97742e-05	185
1880	0.299805	1895.78	5.0293e-05	189
1920	0.299835	1935.78	4.99268e-05	193
1960	0.299957	1975.78	4.98657e-05	197
2000	0.299866	2015.78	4.73328e-05	201
2040	0.299896	2055.78	4.57733e-05	205
2080	0.299896	2095.78	4.28955e-05	209
2120	0.299774	2135.78	4.25385e-05	213
2160	0.299957	2175.78	4.0976e-05	217
2200	0.299896	2215.78	4.22272e-05	221
2240	0.299866	2255.78	4.03168e-05	225
2280	0.299988	2295.78	4.08447e-05	229
2320	0.299927	2335.78	3.85468e-05	233
2360	0.299835	2375.78	3.70148e-05	237
2400	0.299927	2415.78	3.64136e-05	241
2440	0.299805	2455.78	3.62549e-05	245
2480	0.300049	2495.78	3.67035e-05	249
2520	0.299988	2535.78	3.45978e-05	253
2560	0.299927	2575.78	3.46832e-05	257
2600	0.299988	2615.78	3.45032e-05	261
2640	0.299866	2655.78	3.40515e-05	265
2680	0.299896	2695.78	3.26233e-05	269
2720	0.299957	2735.78	3.19244e-05	273
2760	0.299988	2775.78	3.11707e-05	277
2800	0.300049	2815.78	3.11493e-05	281
2840	0.299927	2855.78	2.98248e-05	285
2880	0.299957	2895.78	2.98981e-05	289
2920	0.299896	2935.78	2.99377e-05	293
2960	0.299957	2975.78	2.97455e-05	297
3000	0.299835	3015.78	2.89795e-05	301
3040	0.300079	3055.78	2.87628e-05	305
3080	0.299866	3095.78	2.86652e-05	309
3120	0.299927	3135.78	2.79724e-05	313
3160	0.300049	3175.78	2.8183e-05	317
3200	0.299957	3215.78	2.90985e-05	321
3240	0.299957	3255.78	2.78015e-05	325
3280	0.299896	3295.78	2.68616e-05	329
3320	0.299988	3335.78	2.77039e-05	333
3360	0.299835	3375.78	2.66907e-05	337
3400	0.299896	3415.78	2.62024e-05	341
3440	0.300018	3455.78	2.61902e-05	345
3480	0.299866	3495.78	2.61993e-05	349
3520	0.299957	3535.78	2.59644e-05	353
3560	0.299896	3575.78	2.54364e-05	357
3600	0.299896	3615.78	2.53418e-05	361
3640	0.299835	3655.78	2.5E-05	365
3680	0.300018	3695.78	2.48718e-05	369
3720	0.299896	3735.78	2.42889e-05	373
3760	0.299896	3775.78	2.39319e-05	377
3800	0.299927	3815.78	2.39044e-05	381
3840	0.300018	3855.78	2.3999e-05	385
3880	0.300049	3895.78	2.42157e-05	389
3920	0.299957	3935.78	2.39227e-05	393
3960	0.300018	3975.78	2.44659e-05	397
4000	0.299896	4015.78	2.34863e-05	401
4040	0.299988	4055.78	2.36725e-05	405
4080	0.300018	4095.78	2.31873e-05	409
4120	0.300018	4135.78	2.40631e-05	413
4160	0.299835	4175.78	2.29858e-05	417
4200	0.299896	4215.78	2.28699e-05	421
4240	0.300018	4255.78	2.3288e-05	425
4280	0.299988	4295.78	2.25525e-05	429
4320	0.299927	4335.78	2.35138e-05	433
4360	0.300018	4375.78	2.28333e-05	437
4400	0.299957	4415.78	2.26257e-05	441
4440	0.299988	4455.78	2.2525e-05	445
4480	0.299957	4495.78	2.24762e-05	449
4520	0.300079	4535.78	2.27173e-05	453
4560	0.299866	4575.78	2.29706e-05	457
4600	0.299896	4615.78	2.25037e-05	461
4640	0.300018	4655.78	2.21527e-05	465
4680	0.299927	4695.78	2.19391e-05	469
4720	0.299988	4735.78	2.21375e-05	473
4760	0.299988	4775.78	2.22992e-05	477
4800	0.300018	4815.78	2.24762e-05	481
4840	0.299896	4855.78	2.20947e-05	485
4880	0.299896	4895.78	2.22137e-05	489
4920	0.299896	4935.78	2.3526e-05	493
4960	0.299835	4975.78	2.20551e-05	497
5000	0.299896	5015.78	2.20215e-05	501
5040	0.299896	5055.78	2.19452e-05	505
5080	0.299927	5095.78	2.21588e-05	509
5120	0.299957	5135.78	2.19177e-05	513
5160	0.300018	5175.78	2.15698e-05	517
5200	0.299927	5215.78	2.17133e-05	521
5240	0.299988	5255.78	2.20154e-05	525
5280	0.300049	5295.78	2.14233e-05	529
5320	0.299988	5335.78	2.13287e-05	533
5360	0.299957	5375.78	2.12158e-05	537
5400	0.300018	5415.78	2.13135e-05	541
5440	0.299835	5455.78	2.13226e-05	545
5480	0.299866	5495.78	2.14752e-05	549
5520	0.299896	5535.78	2.13043e-05	553
5560	0.299866	5575.78	2.13776e-05	557
5600	0.300018	5615.78	2.15302e-05	561
5640	0.299896	5655.78	2.09808e-05	565
5680	0.299896	5695.78	2.09625e-05	569
5720	0.300049	5735.78	2.14447e-05	573
5760	0.300079	5775.78	2.14813e-05	577
5800	0.299988	5815.78	2.10327e-05	581
5840	0.299866	5855.78	2.14325e-05	585
5880	0.299988	5895.78	2.14142e-05	589
5920	0.300049	5935.78	2.14325e-05	593
5960	0.300018	5975.78	2.13074e-05	597
6000	0.299957	6015.78	2.20581e-05	601
6040	0.299896	6055.78	2.28394e-05	605
6080	0.299988	6095.78	2.23206e-05	609
6120	0.299988	6135.78	2.21252e-05	613
6160	0.299957	6175.78	2.23083e-05	617
6200	0.299896	6215.78	2.20551e-05	621
6240	0.300018	6255.78	2.22198e-05	625
6280	0.299896	6295.78	2.21588e-05	629
6320	0.299866	6335.78	2.24243e-05	633
6360	0.299896	6375.78	2.22565e-05	637
6400	0.300049	6415.78	2.20581e-05	641
6440	0.299988	6455.78	2.21222e-05	645
6480	0.299866	6495.78	2.25067e-05	649
6520	0.299927	6535.78	2.17468e-05	653
6560	0.300018	6575.78	2.17773e-05	657
6600	0.299988	6615.78	2.17255e-05	661
6640	0.300018	6655.78	2.17285e-05	665
6680	0.299957	6695.78	2.13837e-05	669
6720	0.299896	6735.78	2.14417e-05	673
6760	0.299866	6775.78	2.14386e-05	677
6800	0.299988	6815.78	2.12677e-05	681
6840	0.299927	6855.78	2.07794e-05	685
6880	0.300049	6895.78	2.08466e-05	689
6920	0.299957	6935.78	2.06482e-05	693
6960	0.300018	6975.78	2.05231e-05	697
7000	0.300079	7015.78	2.03217e-05	701
7040	0.299927	7055.78	2.03491e-05	705
7080	0.299896	7095.78	1.97876e-05	709
7120	0.300079	7135.78	1.98578e-05	713
7160	0.299988	7175.78	1.9986e-05	717
7200	0.300018	7215.78	1.9458e-05	721
7240	0.299957	7255.78	1.91284e-05	725
7280	0.300018	7295.78	1.90918e-05	729
7320	0.299957	7335.78	1.89056e-05	733
7360	0.299957	7375.78	1.88995e-05	737
7400	0.300018	7415.78	1.87378e-05	741
7440	0.299927	7455.78	1.86554e-05	745
7480	0.299927	7495.78	1.87195e-05	749
7520	0.299957	7535.78	1.8457e-05	753
7560	0.299957	7575.78	1.82892e-05	757
7600	0.300018	7615.78	1.8576e-05	761
7640	0.299957	7655.78	1.78894e-05	765
7680	0.300049	7695.78	1.77277e-05	769
7720	0.299988	7735.78	1.77063e-05	773
7760	0.300018	7775.78	1.74408e-05	777
7800	0.299896	7815.78	1.74347e-05	781
7840	0.300049	7855.78	1.71539e-05	785
7880	0.299805	7895.78	1.71478e-05	789
7920	0.299988	7935.78	1.74469e-05	793
7960	0.299927	7975.78	1.93787e-05	797
8000	0.300018	8015.78	1.90674e-05	801
8040	0.299927	8055.78	1.84235e-05	805
8080	0.300049	8095.78	1.82281e-05	809
8120	0.300018	8135.78	1.81366e-05	813