Folder: DIPLOMA/ELECTROCHEM_DATA/16.12.2021 ПК222 BF4 1e-4 M TBABF4 0,1 M MeCN 1 mm anode 0,3 V

File: CA
Corrected time (s)	WE(1).Current (A)	Time (s)	WE(1).Potential (V)	Index
0	0.000151123	16.1203	0.300049	1
50	0.000147827	66.1203	0.299896	6
100	0.000134308	116.12	0.299988	11
150	0.000132996	166.12	0.299896	16
200	0.000138214	216.12	0.299957	21
250	0.000131653	266.12	0.299988	26
300	0.000125854	316.12	0.30011	31
350	0.000116791	366.12	0.299957	36
400	0.000126373	416.12	0.300018	41
450	0.000113678	466.12	0.299957	46
500	0.000107361	516.12	0.299957	51
550	0.000114563	566.12	0.299957	56
600	0.000111115	616.12	0.300049	61
650	0.000106567	666.12	0.300018	66
700	0.00010144	716.12	0.299927	71
750	0.000102081	766.12	0.300018	76
800	9.32007e-05	816.12	0.300049	81
850	9.9884e-05	866.12	0.299805	86
900	9.39941e-05	916.12	0.299896	91
950	8.63037e-05	966.12	0.299805	96
1000	8.44116e-05	1016.12	0.299805	101
1050	8.28247e-05	1066.12	0.299927	106
1100	8.05359e-05	1116.12	0.299835	111
1150	7.79419e-05	1166.12	0.299896	116
1200	8.1543e-05	1216.12	0.299927	121
1250	7.48291e-05	1266.12	0.299866	126
1300	7.59277e-05	1316.12	0.299927	131
1350	7.44934e-05	1366.12	0.299835	136
1400	7.01904e-05	1416.12	0.299896	141
1450	6.96716e-05	1466.12	0.299713	146
1500	7.02209e-05	1516.12	0.299927	151
1550	6.41785e-05	1566.12	0.299896	156
1600	6.29272e-05	1616.12	0.299866	161
1650	5.60303e-05	1666.12	0.299957	166
1700	5.93262e-05	1716.12	0.299927	171
1750	5.68542e-05	1766.12	0.299835	176
1800	4.99268e-05	1816.12	0.299927	181
1850	4.76105e-05	1866.12	0.299957	186
1900	4.64844e-05	1916.12	0.299805	191
1950	4.68628e-05	1966.12	0.299927	196
2000	4.69666e-05	2016.12	0.299927	201
2050	4.31396e-05	2066.12	0.299896	206
2100	4.15314e-05	2116.12	0.299866	211
2150	4.03076e-05	2166.12	0.299896	216
2200	4.16779e-05	2216.12	0.299866	221
2250	4.02222e-05	2266.12	0.299896	226
2300	3.8324e-05	2316.12	0.299896	231
2350	3.51471e-05	2366.12	0.299896	236
2400	3.46375e-05	2416.12	0.299957	241
2450	3.41705e-05	2466.12	0.299866	246
2500	3.28613e-05	2516.12	0.299957	251
2550	3.21167e-05	2566.12	0.299988	256
2600	3.43414e-05	2616.12	0.299896	261
2650	3.26294e-05	2666.12	0.299805	266
2700	3.12469e-05	2716.12	0.300049	271
2750	3.08105e-05	2766.12	0.299805	276
2800	3.08289e-05	2816.12	0.299988	281
2850	2.836e-05	2866.12	0.299988	286
2900	2.82043e-05	2916.12	0.299988	291
2950	2.52045e-05	2966.12	0.299896	296
3000	2.64587e-05	3016.12	0.299988	301
3050	2.45544e-05	3066.12	0.299957	306
3100	2.48718e-05	3116.12	0.299866	311
3150	2.37518e-05	3166.12	0.299866	316
3200	2.28821e-05	3216.12	0.299927	321
3250	2.24884e-05	3266.12	0.299835	326
3300	2.32544e-05	3316.12	0.300018	331
3350	2.15973e-05	3366.12	0.299927	336
3400	2.09045e-05	3416.12	0.299805	341
3450	2.18079e-05	3466.12	0.299896	346
3500	2.02332e-05	3516.12	0.299957	351
3550	1.87653e-05	3566.12	0.299835	356
3600	1.99066e-05	3616.12	0.300018	361
3650	1.77948e-05	3666.12	0.299927	366
3700	1.8924e-05	3716.12	0.299957	371
3750	2.05505e-05	3766.12	0.300018	376
3800	1.71661e-05	3816.12	0.299927	381
3850	1.73798e-05	3866.12	0.299927	386
3900	1.63818e-05	3916.12	0.299957	391
3950	1.72546e-05	3966.12	0.299866	396
4000	1.61072e-05	4016.12	0.299927	401
4050	1.59851e-05	4066.12	0.299957	406
4100	1.58875e-05	4116.12	0.299805	411
4150	1.53992e-05	4166.12	0.299988	416
4200	1.47644e-05	4216.12	0.300049	421
4250	1.58203e-05	4266.12	0.300079	426
4300	1.47736e-05	4316.12	0.299988	431
4350	1.43799e-05	4366.12	0.299896	436
4400	1.39984e-05	4416.12	0.300049	441
4450	1.36688e-05	4466.12	0.299896	446
4500	1.39221e-05	4516.12	0.300049	451
4550	1.32751e-05	4566.12	0.299988	456
4600	1.28906e-05	4616.12	0.299927	461
4650	1.33179e-05	4666.12	0.299896	466
4700	1.29425e-05	4716.12	0.299988	471
4750	1.35284e-05	4766.12	0.299957	476
4800	1.27991e-05	4816.12	0.299835	481
4850	1.19446e-05	4866.12	0.300049	486
4900	1.20697e-05	4916.12	0.300018	491
4950	1.2619e-05	4966.12	0.300049	496
5000	1.17279e-05	5016.12	0.300171	501
5050	1.22772e-05	5066.12	0.300018	506
5100	1.27472e-05	5116.12	0.299988	511
5150	1.14471e-05	5166.12	0.300018	516
5200	1.09314e-05	5216.12	0.300018	521
5250	1.08856e-05	5266.12	0.299896	526
5300	1.10321e-05	5316.12	0.300018	531
5350	1.09406e-05	5366.12	0.300049	536
5400	1.073e-05	5416.12	0.299988	541
5450	1.06049e-05	5466.12	0.299988	546
5500	1.11969e-05	5516.12	0.30011	551
5550	1.0379e-05	5566.12	0.299927	556
5600	1.10748e-05	5616.12	0.299927	561
5650	1.0675e-05	5666.12	0.299835	566
5700	1.03058e-05	5716.12	0.299988	571
5750	1.01807e-05	5766.12	0.299866	576
5800	1.02844e-05	5816.12	0.299927	581
5850	1.08673e-05	5866.12	0.300018	586
5900	9.9823e-06	5916.12	0.299927	591
5950	1.07574e-05	5966.12	0.300018	596
6000	1.04553e-05	6016.12	0.300018	601
6050	1.04126e-05	6066.12	0.299927	606
6100	1.04034e-05	6116.12	0.299988	611
6150	1.01685e-05	6166.12	0.300049	616
6200	1.10748e-05	6216.12	0.299988	621
6250	9.67102e-06	6266.12	0.299835	626
6300	9.83582e-06	6316.12	0.299896	631
6350	9.19495e-06	6366.12	0.299744	636
6400	1.03088e-05	6416.12	0.299805	641
6450	9.65271e-06	6466.12	0.299774	646
6500	9.79919e-06	6516.12	0.299896	651
6550	1.03333e-05	6566.12	0.299927	656
6600	9.93042e-06	6616.12	0.299774	661
6650	9.88464e-06	6666.12	0.299835	666
6700	9.70154e-06	6716.12	0.299652	671
6750	1.04034e-05	6766.12	0.299805	676
6800	1.06873e-05	6816.12	0.299835	681
6850	1.00555e-05	6866.12	0.299744	686
6900	9.77783e-06	6916.12	0.299774	691
6950	1.0376e-05	6966.12	0.299927	696
7000	9.34448e-06	7016.12	0.299866	701
7050	9.765625E-06	7066.12	0.299805	706
7100	9.65576e-06	7116.12	0.299774	711
7150	9.56726e-06	7166.12	0.299744	716
7200	9.765625E-06	7216.12	0.299896	721
7250	1.00494e-05	7266.12	0.299774	726
7300	9.36279e-06	7316.12	0.299774	731
7350	9.79919e-06	7366.12	0.299744	736
7400	8.984375E-06	7416.12	0.299866	741
7450	9.30176e-06	7466.12	0.299805	746
7500	9.29565e-06	7516.12	0.299835	751
7550	9.63745e-06	7566.12	0.299835	756
7600	9.30176e-06	7616.12	0.299835	761
7650	9.552e-06	7666.12	0.299805	766
7700	9.74121e-06	7716.12	0.299805	771
7750	9.11255e-06	7766.12	0.299866	776
7800	9.10339e-06	7816.12	0.299835	781
7850	9.46045e-06	7866.12	0.299805	786
7900	9.77478e-06	7916.12	0.299744	791
7950	9.42383e-06	7966.12	0.299774	796
8000	9.90295e-06	8016.12	0.299866	801
8050	9.30481e-06	8066.12	0.299835	806
8100	8.83789e-06	8116.12	0.299866	811
8150	9.97925e-06	8166.12	0.299744	816
8200	9.76868e-06	8216.12	0.299805	821
8250	9.7168e-06	8266.12	0.299774	826
8300	9.48486e-06	8316.12	0.299866	831
8350	9.30481e-06	8366.12	0.299835	836
8400	9.79309e-06	8416.12	0.299683	841
8450	1.02203e-05	8466.12	0.299835	846
8500	9.56116e-06	8516.12	0.299927	851
8550	9.58557e-06	8566.12	0.299835	856
8600	8.71582e-06	8616.12	0.299774	861
8650	9.67712e-06	8666.12	0.299866	866
8700	8.84094e-06	8716.12	0.299835	871
8750	9.39636e-06	8766.12	0.299866	876
8800	1.03485e-05	8816.12	0.299866	881
8850	9.68628e-06	8866.12	0.299805	886
8900	9.74121e-06	8916.12	0.299744	891
8950	1.05438e-05	8966.12	0.299835	896
9000	1.04858e-05	9016.12	0.299805	901
9050	1.04492e-05	9066.12	0.299927	906
9100	1.02509e-05	9116.12	0.299774	911
9150	9.78088e-06	9166.12	0.299774	916
9200	1.0318e-05	9216.12	0.299774	921
9250	1.16547e-05	9266.12	0.299927	926
9300	1.0675e-05	9316.12	0.299866	931
9350	1.04675e-05	9366.12	0.299866	936
9400	1.03638e-05	9416.12	0.299805	941
9450	1.04126e-05	9466.12	0.299835	946
9500	1.01166e-05	9516.12	0.299866	951
9550	1.01807e-05	9566.12	0.299835	956
9600	1.06903e-05	9616.12	0.299744	961
9650	1.14868e-05	9666.12	0.299774	966
9700	9.77173e-06	9716.12	0.299866	971
9750	1.05042e-05	9766.12	0.299896	976
9800	1.02295e-05	9816.12	0.299774	981
9850	1.03821e-05	9866.12	0.299835	986
9900	1.00311e-05	9916.12	0.299866	991
9950	1.02722e-05	9966.12	0.299744	996
10000	1.0257e-05	10016.1	0.299805	1001
10050	9.44824e-06	10066.1	0.299835	1006
10100	9.14917e-06	10116.1	0.299866	1011
10150	9.21021e-06	10166.1	0.299896	1016
10200	9.33838e-06	10216.1	0.299835	1021
10250	1.04523e-05	10266.1	0.299805	1026
10300	1.04858e-05	10316.1	0.299896	1031
10350	9.08813e-06	10366.1	0.299835	1036
10400	1.07483e-05	10416.1	0.299805	1041
10450	1.0614e-05	10466.1	0.299896	1046
10500	9.4696e-06	10516.1	0.299835	1051
10550	1.25183e-05	10566.1	0.299713	1056
10600	1.35834e-05	10616.1	0.299713	1061
10650	1.34064e-05	10666.1	0.299805	1066
10700	1.33789e-05	10716.1	0.299835	1071
10750	1.2796e-05	10766.1	0.299713	1076
10800	1.21765e-05	10816.1	0.299896	1081
10810	1.43982e-05	10826.1	0.299683	1082