Folder: DIPLOMA/ELECTROCHEM_DATA/17.02.2022 16.12.2021 ПК7031 BF4 1e-4 M TBABF4 0,1 M MeCN 1 mm anode 0,8 V

File: CA
Corrected time (s)	WE(1).Current (A)	Time (s)	WE(1).Potential (V)	Index
0	0.000126251	15.7987	0.799255	1
30	7.87659e-05	45.7987	0.799255	4
60	0.000686035	75.7987	0.799561	7
90	0.000653687	105.799	0.799866	10
120	0.000577087	135.799	0.799866	13
150	0.000499573	165.799	0.799866	16
180	0.000532227	195.799	0.799561	19
210	0.000415955	225.799	0.800171	22
240	0.00040921	255.799	0.799255	25
270	0.00042691	285.799	0.799255	28
300	0.000395508	315.799	0.799561	31
330	0.000341339	345.799	0.799561	34
360	0.000298737	375.799	0.799866	37
390	0.000291931	405.799	0.799561	40
420	0.000267883	435.799	0.799561	43
450	0.000275848	465.799	0.800476	46
480	0.000243774	495.799	0.799561	49
510	0.000253082	525.799	0.799866	52
540	0.000228424	555.799	0.799561	55
570	3.80341e-05	585.799	0.799866	58
600	2.47833e-05	615.799	0.799561	61
630	2.31201e-05	645.799	0.800476	64
660	2.29736e-05	675.799	0.799561	67
690	2.22534e-05	705.799	0.799866	70
720	2.40356e-05	735.799	0.79895	73
750	2.3407e-05	765.799	0.799561	76
780	2.35962e-05	795.799	0.799561	79
810	2.28485e-05	825.799	0.799255	82
840	2.20428e-05	855.799	0.800476	85
870	2.20551e-05	885.799	0.799866	88
900	2.2995e-05	915.799	0.799561	91
930	2.23816e-05	945.799	0.799561	94
960	2.25128e-05	975.799	0.799561	97
990	2.2525e-05	1005.8	0.799561	100
1020	2.23175e-05	1035.8	0.799255	103
1050	2.14142e-05	1065.8	0.799561	106
1080	2.1994e-05	1095.8	0.799561	109
1110	2.15729e-05	1125.8	0.799866	112
1140	2.15759e-05	1155.8	0.799561	115
1170	0.00022641	1185.8	0.79895	118
1200	0.000188171	1215.8	0.799561	121
1230	0.000193115	1245.8	0.79895	124
1260	0.000175934	1275.8	0.799255	127
1290	0.000162933	1305.8	0.799561	130
1320	0.000141632	1335.8	0.799866	133
1350	0.000141052	1365.8	0.799866	136
1380	0.000152802	1395.8	0.799255	139
1410	0.00012851	1425.8	0.799866	142
1440	0.000126099	1455.8	0.799866	145
1470	0.000114685	1485.8	0.799561	148
1500	0.000130798	1515.8	0.799866	151
1530	0.000106476	1545.8	0.799561	154
1560	0.000100769	1575.8	0.799255	157
1590	9.54895e-05	1605.8	0.799561	160
1620	9.42078e-05	1635.8	0.799561	163
1650	1.37726e-05	1665.8	0.799561	166
1680	1.21765e-05	1695.8	0.79895	169
1710	1.20056e-05	1725.8	0.800171	172
1740	0.000103302	1755.8	0.799561	175
1770	0.000100311	1785.8	0.799561	178
1800	8.40759e-05	1815.8	0.799866	181
1830	9.15833e-05	1845.8	0.799866	184
1860	8.1665e-05	1875.8	0.800171	187
1890	8.89893e-05	1905.8	0.799866	190
1920	7.49207e-05	1935.8	0.799255	193
1950	7.65076e-05	1965.8	0.799561	196
1980	7.53174e-05	1995.8	0.799866	199
2010	7.18689e-05	2025.8	0.799866	202
2040	7.74536e-05	2055.8	0.799561	205
2070	1.61835e-05	2085.8	0.799255	208
2100	8.52661e-06	2115.8	0.799866	211
2130	9.59473e-06	2145.8	0.799866	214
2160	6.86035e-05	2175.8	0.799561	217
2190	7.50732e-05	2205.8	0.799561	220
2220	8.18481e-05	2235.8	0.799255	223
2250	7.37e-05	2265.8	0.799561	226
2280	7.18689e-05	2295.8	0.799866	229
2310	7.93457e-05	2325.8	0.799561	232
2340	6.91528e-05	2355.8	0.799866	235
2370	6.46057e-05	2385.8	0.799255	238
2400	6.17371e-05	2415.8	0.799561	241
2430	6.71387e-05	2445.8	0.799561	244
2460	6.04553e-05	2475.8	0.799561	247
2490	6.3324e-05	2505.8	0.799561	250
2520	1.13312e-05	2535.8	0.799866	253
2550	7.19604e-06	2565.8	0.799866	256
2580	5.24597e-05	2595.8	0.799561	259
2610	5.29175e-05	2625.8	0.799866	262
2640	5.87463e-05	2655.8	0.799561	265
2670	1.79779e-05	2685.8	0.800476	268
2700	5.84106e-05	2715.8	0.799866	271
2730	4.75403e-05	2745.8	0.799255	274
2760	5.06287e-05	2775.8	0.799866	277
2790	3.26721e-05	2805.8	0.799866	280
2820	4.45892e-05	2835.8	0.799866	283
2850	4.29596e-05	2865.8	0.799561	286
2880	4.58008e-05	2895.8	0.799561	289
2910	4.89197e-05	2925.8	0.799561	292
2940	6.62537e-06	2955.8	0.799561	295
2970	6.1615e-06	2985.8	0.799255	298
3000	4.8877e-05	3015.8	0.799866	301
3030	4.73938e-05	3045.8	0.799561	304
3060	4.87854e-05	3075.8	0.799255	307
3090	3.75671e-05	3105.8	0.799255	310
3120	6.43311e-06	3135.8	0.799255	313
3150	7.0282e-06	3165.8	0.799255	316
3180	7.2052e-06	3195.8	0.799866	319
3210	5.60791e-05	3225.8	0.799866	322
3240	4.51508e-05	3255.8	0.799866	325
3270	4.99268e-05	3285.8	0.79895	328
3300	4.39697e-05	3315.8	0.799866	331
3330	4.09668e-05	3345.8	0.79895	334
3360	4.43695e-05	3375.8	0.799561	337
3390	4.39606e-05	3405.8	0.800171	340
3420	3.60596e-05	3435.8	0.800171	343
3450	3.927e-05	3465.8	0.799561	346
3480	4.7699e-05	3495.8	0.799866	349
3510	3.84918e-05	3525.8	0.799255	352
3540	3.36273e-05	3555.8	0.799561	355
3570	3.83179e-05	3585.8	0.799866	358
3600	4.29047e-05	3615.8	0.799866	361
3630	3.04962e-05	3645.8	0.799561	364
3660	2.96204e-05	3675.8	0.799866	367
3690	3.03345e-05	3705.8	0.799255	370
3720	2.91748e-05	3735.8	0.79895	373
3750	3.06366e-05	3765.8	0.799866	376
3780	2.92969e-05	3795.8	0.799561	379
3810	3.16528e-05	3825.8	0.799255	382
3840	2.90741e-05	3855.8	0.79895	385
3870	2.83234e-05	3885.8	0.799255	388
3900	3.12073e-05	3915.8	0.799866	391
3930	3.10608e-05	3945.8	0.799866	394
3960	2.86835e-05	3975.8	0.799255	397
3990	2.82745e-05	4005.8	0.799561	400
4020	2.7124e-05	4035.8	0.798645	403
4050	2.63977e-05	4065.8	0.799866	406
4080	2.5351e-05	4095.8	0.799561	409
4110	2.52899e-05	4125.8	0.799561	412
4140	2.46338e-05	4155.8	0.800476	415
4170	2.44659e-05	4185.8	0.799866	418
4200	2.72186e-05	4215.8	0.799561	421
4230	2.43866e-05	4245.8	0.800476	424
4260	2.42249e-05	4275.8	0.799561	427
4290	2.61108e-05	4305.8	0.800171	430
4320	2.18292e-05	4335.8	0.799561	433
4350	2.44965e-05	4365.8	0.799561	436
4380	2.77008e-05	4395.8	0.799255	439
4410	2.13989e-05	4425.8	0.800171	442
4440	2.16309e-05	4455.8	0.799255	445
4470	2.08374e-05	4485.8	0.799561	448
4500	2.27539e-05	4515.8	0.799561	451
4530	2.3291e-05	4545.8	0.800171	454
4560	2.2403e-05	4575.8	0.799561	457
4590	2.03674e-05	4605.8	0.799561	460
4620	2.13715e-05	4635.8	0.799866	463
4650	2.12494e-05	4665.8	0.800171	466
4680	2.03918e-05	4695.8	0.799866	469
4710	2.13074e-05	4725.8	0.799561	472
4740	2.07733e-05	4755.8	0.799866	475
4770	1.89362e-05	4785.8	0.799561	478
4800	2.24243e-05	4815.8	0.799561	481
4830	1.88538e-05	4845.8	0.799866	484
4860	2.10449e-05	4875.8	0.799255	487
4890	2.15027e-05	4905.8	0.799255	490
4920	2.02972e-05	4935.8	0.799561	493
4950	1.8335e-05	4965.8	0.799866	496
4980	2.01172e-05	4995.8	0.799255	499
5010	1.95251e-05	5025.8	0.799255	502
5040	2.02057e-05	5055.8	0.799561	505
5070	2.08527e-05	5085.8	0.799866	508
5100	1.82983e-05	5115.8	0.799561	511
5130	1.71722e-05	5145.8	0.799561	514
5160	1.89636e-05	5175.8	0.799255	517
5190	1.9751e-05	5205.8	0.799255	520
5220	1.87714e-05	5235.8	0.799866	523
5250	1.86737e-05	5265.8	0.799561	526
5280	1.90674e-05	5295.8	0.79895	529
5310	1.83044e-05	5325.8	0.800171	532
5340	1.74988e-05	5355.8	0.799255	535
5370	1.92566e-05	5385.8	0.799561	538
5400	1.9165e-05	5415.8	0.799866	541
5430	1.83624e-05	5445.8	0.799255	544
5460	1.86676e-05	5475.8	0.799561	547
5490	1.84143e-05	5505.8	0.799561	550
5520	1.70898e-05	5535.8	0.799561	553
5550	1.76636e-05	5565.8	0.799561	556
5580	1.60431e-05	5595.8	0.799561	559
5610	1.81061e-05	5625.8	0.799561	562
5640	1.69769e-05	5655.8	0.799866	565
5670	1.75049e-05	5685.8	0.799561	568
5700	1.82281e-05	5715.8	0.799561	571
5730	1.604e-05	5745.8	0.799866	574
5760	1.9455e-05	5775.8	0.799866	577
5790	1.70563e-05	5805.8	0.799561	580
5820	1.81427e-05	5835.8	0.799255	583
5850	1.68945e-05	5865.8	0.799561	586
5880	1.74622e-05	5895.8	0.799561	589
5910	1.67908e-05	5925.8	0.799561	592
5940	1.63727e-05	5955.8	0.799866	595
5970	1.6864e-05	5985.8	0.800171	598
6000	1.53168e-05	6015.8	0.799561	601
6030	1.61346e-05	6045.8	0.800171	604
6060	1.74927e-05	6075.8	0.799866	607
6090	1.86188e-05	6105.8	0.799866	610
6120	1.72028e-05	6135.8	0.799866	613
6150	1.59637e-05	6165.8	0.800171	616
6180	1.6098e-05	6195.8	0.800171	619
6210	1.62842e-05	6225.8	0.799561	622
6240	1.73889e-05	6255.8	0.799866	625
6270	1.57898e-05	6285.8	0.799561	628
6300	1.57593e-05	6315.8	0.799255	631
6330	1.6333e-05	6345.8	0.799866	634
6360	1.52374e-05	6375.8	0.799561	637
6390	1.64948e-05	6405.8	0.799866	640
6420	1.53717e-05	6435.8	0.799255	643
6450	1.53778e-05	6465.8	0.800171	646
6480	1.62201e-05	6495.8	0.799255	649
6510	1.66321e-05	6525.8	0.799866	652
6540	1.52283e-05	6555.8	0.800171	655
6570	1.63666e-05	6585.8	0.799561	658
6600	1.66351e-05	6615.8	0.799561	661
6630	1.66138e-05	6645.8	0.799255	664
6660	1.56189e-05	6675.8	0.799255	667
6690	1.47156e-05	6705.8	0.799866	670
6720	1.48773e-05	6735.8	0.799561	673
6750	1.59515e-05	6765.8	0.799255	676
6780	1.41693e-05	6795.8	0.799561	679
6810	1.3916e-05	6825.8	0.79895	682
6840	1.45996e-05	6855.8	0.799255	685
6870	1.51794e-05	6885.8	0.799561	688
6900	1.55548e-05	6915.8	0.800171	691
6930	1.45691e-05	6945.8	0.799561	694
6960	1.38794e-05	6975.8	0.79895	697
6990	1.35193e-05	7005.8	0.799866	700
7020	1.55914e-05	7035.8	0.799561	703
7050	1.57867e-05	7065.8	0.799561	706
7080	1.63452e-05	7095.8	0.799561	709
7110	1.43311e-05	7125.8	0.799866	712
7140	1.55457e-05	7155.8	0.799561	715
7170	1.36078e-05	7185.8	0.799561	718
7200	1.46179e-05	7215.8	0.799561	721
7230	1.4682e-05	7245.8	0.799561	724
7260	1.56677e-05	7275.8	0.799561	727
7290	1.54877e-05	7305.8	0.799561	730
7320	1.46881e-05	7335.8	0.799866	733
7350	1.27869e-05	7365.8	0.799866	736
7380	1.41266e-05	7395.8	0.800476	739
7410	1.27747e-05	7425.8	0.799561	742
7440	1.33789e-05	7455.8	0.799561	745
7470	1.63696e-05	7485.8	0.799561	748
7500	2.40601e-05	7515.8	0.799866	751
7530	2.88666e-05	7545.8	0.799255	754
7560	2.98859e-05	7575.8	0.799866	757
7590	2.76306e-05	7605.8	0.799561	760
7620	2.95898e-05	7635.8	0.800171	763
7650	2.44965e-05	7665.8	0.79895	766
7680	2.6825e-05	7695.8	0.799561	769
7710	2.79205e-05	7725.8	0.799561	772