Folder: DIPLOMA/ELECTROCHEM_DATA/18.02.2022 ПК208 ClO4 1e-4 M TBABF4 0,1 M MeCN 1 mm anode 0,8 V

File: CA
Corrected time (s)	WE(1).Current (A)	Time (s)	WE(1).Potential (V)	Index
0	0.000713501	15.7952	0.799866	1
20	0.00059082	35.7952	0.799561	3
40	0.000562439	55.7952	0.79895	5
60	0.000502319	75.7952	0.799866	7
80	0.000555115	95.7952	0.799561	9
100	0.000472504	115.795	0.799561	11
120	0.000520935	135.795	0.799561	13
140	0.000447784	155.795	0.799866	15
160	0.000425995	175.795	0.799255	17
180	0.00044635	195.795	0.800781	19
200	0.000409332	215.795	0.79895	21
220	0.000379547	235.795	0.799255	23
240	0.000338898	255.795	0.800171	25
260	0.000342041	275.795	0.799255	27
280	0.000331848	295.795	0.799255	29
300	0.000306641	315.795	0.799561	31
320	0.000333954	335.795	0.799255	33
340	0.000296661	355.795	0.799561	35
360	0.000291046	375.795	0.799866	37
380	0.000265137	395.795	0.800171	39
400	0.000243744	415.795	0.799561	41
420	0.000236389	435.795	0.799866	43
440	0.000258453	455.795	0.800171	45
460	0.000213806	475.795	0.799255	47
480	0.000184113	495.795	0.800171	49
500	0.000195129	515.795	0.799255	51
520	0.000213379	535.795	0.800171	53
540	0.000168884	555.795	0.799561	55
560	0.000185699	575.795	0.800476	57
580	0.000164398	595.795	0.801086	59
600	0.000157532	615.795	0.79895	61
620	0.000144714	635.795	0.799866	63
640	0.000131805	655.795	0.79895	65
660	0.000126434	675.795	0.799561	67
680	0.000118286	695.795	0.799255	69
700	0.000125183	715.795	0.799561	71
720	0.000105255	735.795	0.799561	73
740	0.00011618	755.795	0.800171	75
760	0.000105896	775.795	0.799866	77
780	9.65576e-05	795.795	0.79895	79
800	8.5022e-05	815.795	0.799866	81
820	9.57336e-05	835.795	0.799255	83
840	7.88574e-05	855.795	0.800171	85
860	8.02612e-05	875.795	0.799561	87
880	7.24182e-05	895.795	0.799255	89
900	7.09534e-05	915.795	0.79895	91
920	7.56531e-05	935.795	0.79895	93
940	6.41174e-05	955.795	0.799866	95
960	6.27441e-05	975.795	0.800476	97
980	5.92346e-05	995.795	0.799255	99
1000	5.0415e-05	1015.8	0.799561	101
1020	5.33447e-05	1035.8	0.799561	103
1040	5.7373e-05	1055.8	0.799561	105
1060	4.84009e-05	1075.8	0.799561	107
1080	4.28192e-05	1095.8	0.799561	109
1100	4.41895e-05	1115.8	0.799255	111
1120	4.38782e-05	1135.8	0.799866	113
1140	4.51447e-05	1155.8	0.799866	115
1160	4.08661e-05	1175.8	0.799866	117
1180	4.04633e-05	1195.8	0.799561	119
1200	3.91876e-05	1215.8	0.798645	121
1220	3.82019e-05	1235.8	0.799255	123
1240	4.11804e-05	1255.8	0.799561	125
1260	3.74084e-05	1275.8	0.800781	127
1280	3.8678e-05	1295.8	0.799255	129
1300	3.63342e-05	1315.8	0.799561	131
1320	3.37494e-05	1335.8	0.799561	133
1340	3.56659e-05	1355.8	0.799866	135
1360	3.63708e-05	1375.8	0.799866	137
1380	3.10608e-05	1395.8	0.799866	139
1400	3.17139e-05	1415.8	0.799561	141
1420	3.04779e-05	1435.8	0.799255	143
1440	3.07159e-05	1455.8	0.800171	145
1460	2.95776e-05	1475.8	0.79895	147
1480	3.07983e-05	1495.8	0.79895	149
1500	3.00507e-05	1515.8	0.800171	151
1520	2.77039e-05	1535.8	0.800476	153
1540	2.95105e-05	1555.8	0.799866	155
1560	2.80914e-05	1575.8	0.79834	157
1580	2.64923e-05	1595.8	0.79895	159
1600	2.89917e-05	1615.8	0.79895	161
1620	2.66541e-05	1635.8	0.798645	163
1640	2.47406e-05	1655.8	0.79895	165
1660	2.55646e-05	1675.8	0.79895	167
1680	2.73834e-05	1695.8	0.799561	169
1700	2.67456e-05	1715.8	0.799561	171
1720	2.48596e-05	1735.8	0.799561	173
1740	2.47253e-05	1755.8	0.79895	175
1760	2.47375e-05	1775.8	0.799255	177
1780	2.36237e-05	1795.8	0.799255	179
1800	2.39563e-05	1815.8	0.799255	181
1820	2.42859e-05	1835.8	0.799255	183
1840	2.36053e-05	1855.8	0.799561	185
1860	2.28363e-05	1875.8	0.79834	187
1880	2.43439e-05	1895.8	0.799866	189
1900	2.33917e-05	1915.8	0.800171	191
1920	2.1579e-05	1935.8	0.799561	193
1940	2.2821e-05	1955.8	0.799866	195
1960	2.19025e-05	1975.8	0.800171	197
1980	2.23328e-05	1995.8	0.800171	199
2000	2.25555e-05	2015.8	0.79895	201
2020	2.11792e-05	2035.8	0.79895	203
2040	2.1875E-05	2055.8	0.799561	205
2060	2.15607e-05	2075.8	0.799866	207
2080	2.17712e-05	2095.8	0.799866	209
2100	2.19025e-05	2115.8	0.799561	211
2120	2.21283e-05	2135.8	0.799866	213
2140	2.29126e-05	2155.8	0.800476	215
2160	2.31934e-05	2175.8	0.799255	217
2180	2.03003e-05	2195.8	0.799561	219
2200	2.18964e-05	2215.8	0.799866	221
2220	2.005e-05	2235.8	0.799866	223
2240	2.15637e-05	2255.8	0.799561	225
2260	2.02362e-05	2275.8	0.799561	227
2280	2.18292e-05	2295.8	0.799561	229
2300	2.15515e-05	2315.8	0.79895	231
2320	1.96442e-05	2335.8	0.800171	233
2340	2.06329e-05	2355.8	0.800171	235
2360	2.18292e-05	2375.8	0.799866	237
2380	2.06116e-05	2395.8	0.800476	239
2400	2.12311e-05	2415.8	0.800171	241
2420	1.96808e-05	2435.8	0.799866	243
2440	2.23724e-05	2455.8	0.79895	245
2460	2.06879e-05	2475.8	0.800171	247
2480	2.14874e-05	2495.8	0.799255	249
2500	1.93054e-05	2515.8	0.800171	251
2520	2.00928e-05	2535.8	0.799561	253
2540	1.87775e-05	2555.8	0.799866	255
2560	1.88934e-05	2575.8	0.800171	257
2580	1.98364e-05	2595.8	0.799255	259
2600	2.14661e-05	2615.8	0.798645	261
2620	1.9989e-05	2635.8	0.79895	263
2640	1.86798e-05	2655.8	0.799561	265
2660	1.72211e-05	2675.8	0.800171	267
2680	1.85974e-05	2695.8	0.799561	269
2700	1.9043e-05	2715.8	0.799255	271
2720	1.79779e-05	2735.8	0.79895	273
2740	2.15179e-05	2755.8	0.79895	275
2760	1.83105e-05	2775.8	0.799561	277
2780	2.00256e-05	2795.8	0.799561	279
2800	1.93054e-05	2815.8	0.79895	281
2820	1.77551e-05	2835.8	0.799255	283
2840	1.79749e-05	2855.8	0.799255	285
2860	1.93329e-05	2875.8	0.79895	287
2880	2.00226e-05	2895.8	0.800171	289
2900	1.85547e-05	2915.8	0.801086	291
2920	1.82556e-05	2935.8	0.799561	293
2940	1.81122e-05	2955.8	0.798645	295
2960	1.79047e-05	2975.8	0.798645	297
2980	1.92749e-05	2995.8	0.79895	299
3000	1.94824e-05	3015.8	0.799255	301
3020	1.77124e-05	3035.8	0.79895	303
3040	1.82251e-05	3055.8	0.799255	305
3060	1.78497e-05	3075.8	0.79895	307
3080	2.00806e-05	3095.8	0.799561	309
3100	1.78772e-05	3115.8	0.800781	311
3120	1.96594e-05	3135.8	0.800476	313
3140	1.94794e-05	3155.8	0.799561	315
3160	7.51038e-06	3175.8	0.798645	317
3180	5.94177e-06	3195.8	0.798645	319
3200	5.93262e-06	3215.8	0.799866	321
3220	6.48499e-06	3235.8	0.800171	323
3240	6.47278e-06	3255.8	0.800476	325
3260	2.12372e-05	3275.8	0.799866	327
3280	2.09625e-05	3295.8	0.799255	329
3300	1.99432e-05	3315.8	0.799255	331
3320	1.8219e-05	3335.8	0.799866	333
3340	2.01263e-05	3355.8	0.799866	335
3360	1.88446e-05	3375.8	0.799255	337
3380	2.13959e-05	3395.8	0.799561	339
3400	1.94244e-05	3415.8	0.800476	341
3420	1.8869e-05	3435.8	0.799255	343
3440	1.85638e-05	3455.8	0.799561	345
3460	1.99707e-05	3475.8	0.798645	347
3480	1.85638e-05	3495.8	0.79895	349
3500	1.82678e-05	3515.8	0.799255	351
3520	2.04498e-05	3535.8	0.798645	353
3540	1.73981e-05	3555.8	0.799255	355
3560	1.80328e-05	3575.8	0.79834	357
3580	1.98181e-05	3595.8	0.798645	359
3600	1.73248e-05	3615.8	0.799561	361
3620	1.90399e-05	3635.8	0.800476	363
3640	1.62323e-05	3655.8	0.799561	365
3660	1.80664e-05	3675.8	0.799255	367
3680	1.66595e-05	3695.8	0.799561	369
3700	1.71204e-05	3715.8	0.799561	371
3720	1.74652e-05	3735.8	0.799255	373
3740	1.60278e-05	3755.8	0.79895	375
3760	1.6864e-05	3775.8	0.800171	377
3780	1.61835e-05	3795.8	0.801086	379
3800	1.43738e-05	3815.8	0.799561	381
3820	1.73584e-05	3835.8	0.799561	383
3840	1.40533e-05	3855.8	0.79895	385
3860	1.90277e-05	3875.8	0.800171	387
3880	1.70044e-05	3895.8	0.79834	389
3900	1.85852e-05	3915.8	0.799561	391
3920	1.8158e-05	3935.8	0.800781	393
3940	1.82983e-05	3955.8	0.800781	395
3960	1.63452e-05	3975.8	0.798645	397
3980	1.61682e-05	3995.8	0.799561	399
4000	1.49872e-05	4015.8	0.79895	401
4020	1.54358e-05	4035.8	0.800476	403
4040	1.75751e-05	4055.8	0.800476	405
4060	1.48834e-05	4075.8	0.799866	407
4080	1.72516e-05	4095.8	0.799561	409
4100	1.57684e-05	4115.8	0.800476	411
4120	1.49475e-05	4135.8	0.799866	413
4140	1.59515e-05	4155.8	0.79895	415
4160	1.51855e-05	4175.8	0.79895	417
4180	1.41846e-05	4195.8	0.799866	419
4200	1.59393e-05	4215.8	0.799866	421
4220	1.51154e-05	4235.8	0.800171	423
4240	1.65344e-05	4255.8	0.800171	425
4260	1.5921e-05	4275.8	0.799866	427
4280	1.50238e-05	4295.8	0.798645	429
4300	1.35132e-05	4315.8	0.799561	431
4320	9.43298e-06	4335.8	0.800171	433
4340	1.30981e-05	4355.8	0.799561	435
4360	1.5329e-05	4375.8	0.800171	437
4380	1.5033e-05	4395.8	0.800171	439
4400	1.53412e-05	4415.8	0.799866	441
4420	1.49384e-05	4435.8	0.800476	443
4440	1.50879e-05	4455.8	0.799561	445
4460	1.42487e-05	4475.8	0.798645	447
4480	1.54297e-05	4495.8	0.799255	449
4500	1.36963e-05	4515.8	0.799255	451
4520	1.53564e-05	4535.8	0.799561	453
4540	1.44257e-05	4555.8	0.799866	455
4560	1.51215e-05	4575.8	0.799561	457
4580	1.5274e-05	4595.8	0.799866	459
4600	1.47949e-05	4615.8	0.799866	461
4620	1.41235e-05	4635.8	0.799561	463
4640	1.48346e-05	4655.8	0.799255	465
4660	1.37878e-05	4675.8	0.799255	467
4680	1.51978e-05	4695.8	0.800476	469
4700	1.57379e-05	4715.8	0.800476	471
4720	1.73462e-05	4735.8	0.799866	473
4740	3.45642e-05	4755.8	0.799255	475
4760	4.67834e-05	4775.8	0.799255	477
4780	4.34082e-05	4795.8	0.799561	479
4800	4.18427e-05	4815.8	0.799561	481
4820	4.13727e-05	4835.8	0.799561	483
4840	3.58459e-05	4855.8	0.800781	485
4860	3.87543e-05	4875.8	0.799561	487
4880	3.73077e-05	4895.8	0.800171	489
4900	3.81744e-05	4915.8	0.800171	491
4910	3.66638e-05	4925.8	0.799255	492