Folder: DIPLOMA/ELECTROCHEM_DATA/27.04.2022 ПК208 ClO4 1e-4 M TBABF4 0,1 M MeCN 1 mm anode 0,4 V

Note: ELECTROCHEM_DATA/27.04.2022 ПК208 ClO4 1e-4 M TBABF4 0,1 M MeCN 1 mm anode 0,4 V/1140 min.txt
315.000000 0.140063
316.000000 0.140170
317.000000 0.141419
318.000000 0.142569
319.000000 0.142948
320.000000 0.143969
321.000000 0.145446
322.000000 0.146588
323.000000 0.148429
324.000000 0.150189
325.000000 0.151284
326.000000 0.152731
327.000000 0.154197
328.000000 0.155329
329.000000 0.156915
330.000000 0.158494
331.000000 0.160009
332.000000 0.161533
333.000000 0.162490
334.000000 0.163664
335.000000 0.165582
336.000000 0.167466
337.000000 0.168779
338.000000 0.170092
339.000000 0.171783
340.000000 0.173630
341.000000 0.175451
342.000000 0.177655
343.000000 0.179872
344.000000 0.182206
345.000000 0.184803
346.000000 0.187311
347.000000 0.189710
348.000000 0.192068
349.000000 0.194196
350.000000 0.196180
351.000000 0.198321
352.000000 0.200565
353.000000 0.202938
354.000000 0.205160
355.000000 0.207113
356.000000 0.209136
357.000000 0.211391
358.000000 0.213478
359.000000 0.215366
360.000000 0.217489
361.000000 0.219680
362.000000 0.221792
363.000000 0.223922
364.000000 0.226224
365.000000 0.228535
366.000000 0.230699
367.000000 0.232929
368.000000 0.234976
369.000000 0.236592
370.000000 0.238282
371.000000 0.239890
372.000000 0.241392
373.000000 0.242749
374.000000 0.244341
375.000000 0.246284
376.000000 0.247531
377.000000 0.248504
378.000000 0.249553
379.000000 0.250823
380.000000 0.252257
381.000000 0.253871
382.000000 0.255553
383.000000 0.257074
384.000000 0.258320
385.000000 0.259122
386.000000 0.259853
387.000000 0.260374
388.000000 0.260314
389.000000 0.260271
390.000000 0.260198
391.000000 0.259659
392.000000 0.258610
393.000000 0.257264
394.000000 0.256015
395.000000 0.254640
396.000000 0.253187
397.000000 0.251742
398.000000 0.250002
399.000000 0.248042
400.000000 0.246108
401.000000 0.244031
402.000000 0.241858
403.000000 0.239489
404.000000 0.237155
405.000000 0.234708
406.000000 0.232057
407.000000 0.229452
408.000000 0.226639
409.000000 0.223881
410.000000 0.221306
411.000000 0.218622
412.000000 0.215908
413.000000 0.213411
414.000000 0.210843
415.000000 0.208144
416.000000 0.205556
417.000000 0.202786
418.000000 0.199915
419.000000 0.197215
420.000000 0.194265
421.000000 0.191138
422.000000 0.188242
423.000000 0.185179
424.000000 0.181892
425.000000 0.178639
426.000000 0.175165
427.000000 0.171572
428.000000 0.168248
429.000000 0.164893
430.000000 0.161423
431.000000 0.158056
432.000000 0.154526
433.000000 0.151015
434.000000 0.147750
435.000000 0.144535
436.000000 0.141409
437.000000 0.138335
438.000000 0.135283
439.000000 0.132441
440.000000 0.129706
441.000000 0.127129
442.000000 0.124850
443.000000 0.122539
444.000000 0.120187
445.000000 0.117915
446.000000 0.115501
447.000000 0.113037
448.000000 0.110570
449.000000 0.108105
450.000000 0.105639
451.000000 0.102922
452.000000 0.100116
453.000000 0.097388
454.000000 0.094514
455.000000 0.091653
456.000000 0.088814
457.000000 0.08595

File: CA
Corrected time (s);WE(1).Current (A);Time (s);WE(1).Potential (V);Index
0;0.000211639;16.0544;0.40033;1
10;0.000193237;26.0544;0.400269;2
20;0.000177155;36.0544;0.399475;3
30;0.000195709;46.0544;0.399689;4
40;0.000192169;56.0544;0.400146;5
50;0.000204498;66.0544;0.399384;6
60;0.000187256;76.0544;0.400421;7
70;0.000194183;86.0544;0.39978;8
80;0.000188934;96.0544;0.399902;9
90;0.000185516;106.054;0.399902;10
100;0.000182068;116.054;0.399841;11
110;0.00018988;126.054;0.39978;12
120;0.000176849;136.054;0.399353;13
130;0.000188171;146.054;0.399933;14
140;0.00017807;156.054;0.399567;15
150;0.000191406;166.054;0.399902;16
160;0.000175873;176.054;0.399811;17
170;0.000174469;186.054;0.39975;18
180;0.000165131;196.054;0.399597;19
190;0.00018515;206.054;0.399933;20
200;0.000180908;216.054;0.39978;21
210;0.000160126;226.054;0.399719;22
220;0.000169098;236.054;0.399963;23
230;0.000165314;246.054;0.400055;24
240;0.000157562;256.054;0.399414;25
250;0.000155273;266.054;0.400208;26
260;0.000153717;276.054;0.399567;27
270;0.000152924;286.054;0.399597;28
280;0.000165985;296.054;0.400116;29
290;0.000158264;306.054;0.399933;30
300;0.000163208;316.054;0.399689;31
310;0.000174652;326.054;0.399628;32
320;0.000166656;336.054;0.400238;33
330;0.000165253;346.054;0.399872;34
340;0.000159485;356.054;0.399689;35
350;0.00016748;366.054;0.399689;36
360;0.000146271;376.054;0.400024;37
370;0.000163239;386.054;0.400177;38
380;0.000153168;396.054;0.399414;39
390;0.000150696;406.054;0.399872;40
400;0.000144745;416.054;0.400238;41
410;0.000161713;426.054;0.400146;42
420;0.00016156;436.054;0.399841;43
430;0.000152588;446.054;0.399628;44
440;0.00014798;456.054;0.400238;45
450;0.000154572;466.054;0.400238;46
460;0.000157959;476.054;0.399658;47
470;0.000161133;486.054;0.39978;48
480;0.00015567;496.054;0.400146;49
490;0.000140625;506.054;0.399414;50
500;0.000144501;516.054;0.399933;51
510;0.000136963;526.054;0.400391;52
520;0.000152283;536.054;0.399841;53
530;0.000149353;546.054;0.400238;54
540;0.000149567;556.054;0.399506;55
550;0.000148163;566.054;0.399933;56
560;0.000143921;576.054;0.399994;57
570;0.000147766;586.054;0.39975;58
580;0.000147003;596.054;0.40036;59
590;0.00013205;606.054;0.399811;60
600;0.000129181;616.054;0.399414;61
610;0.000149597;626.054;0.399841;62
620;0.000148926;636.054;0.400177;63
630;0.000141052;646.054;0.400055;64
640;0.000127258;656.054;0.399841;65
650;0.000138367;666.054;0.399506;66
660;0.000135284;676.054;0.399963;67
670;0.000135193;686.054;0.399231;68
680;0.000126923;696.054;0.399811;69
690;0.000127686;706.054;0.400208;70
700;0.000131195;716.054;0.399994;71
710;0.00014035;726.054;0.399811;72
720;0.000135406;736.054;0.399933;73
730;0.000123566;746.054;0.399811;74
740;0.000132141;756.054;0.400177;75
750;0.000136505;766.054;0.399872;76
760;0.0001315;776.054;0.400482;77
770;0.000127502;786.054;0.39978;78
780;0.000138855;796.054;0.399933;79
790;0.000122375;806.054;0.400146;80
800;0.000121155;816.054;0.39978;81
810;0.000128876;826.054;0.399689;82
820;0.000126251;836.054;0.400024;83
830;0.000121429;846.054;0.399902;84
840;0.000124756;856.054;0.399811;85
850;0.000126221;866.054;0.399872;86
860;0.000131165;876.054;0.399963;87
870;0.000121368;886.054;0.399872;88
880;0.000117432;896.054;0.399231;89
890;0.000126587;906.054;0.39975;90
900;0.000114471;916.054;0.399719;91
910;0.00012677;926.054;0.400391;92
920;0.000124542;936.054;0.399902;93
930;0.000124786;946.054;0.399963;94
940;0.000125702;956.054;0.39975;95
950;0.000111359;966.054;0.400146;96
960;0.000103638;976.054;0.399475;97
970;0.000111664;986.054;0.400024;98
980;0.000112183;996.054;0.399323;99
990;0.00011969;1006.05;0.400055;100
1000;0.000114014;1016.05;0.399811;101
1010;0.000107025;1026.05;0.399872;102
1020;9.85718e-05;1036.05;0.399719;103
1030;0.000113464;1046.05;0.400269;104
1040;0.000115112;1056.05;0.399719;105
1050;0.000113495;1066.05;0.400269;106
1060;0.000116394;1076.05;0.399658;107
1070;0.000107758;1086.05;0.400482;108
1080;0.000105774;1096.05;0.400055;109
1090;0.000105988;1106.05;0.399567;110
1100;0.000104767;1116.05;0.39978;111
1110;0.000115143;1126.05;0.400299;112
1120;0.000110168;1136.05;0.400177;113
1130;0.000108704;1146.05;0.399841;114
1140;0.000109375;1156.05;0.399597;115
1150;0.00011319;1166.05;0.399963;116
1160;0.00011087;1176.05;0.400024;117
1170;0.00010614;1186.05;0.399902;118
1180;0.000111023;1196.05;0.40036;119
1190;0.000100983;1206.05;0.399841;120
1200;9.50928e-05;1216.05;0.39978;121
1210;0.00010202;1226.05;0.399658;122
1220;0.000100342;1236.05;0.399963;123
1230;0.00010437;1246.05;0.400482;124
1240;0.000102661;1256.05;0.399872;125
1250;0.000102997;1266.05;0.400024;126
1260;9.61914e-05;1276.05;0.399963;127
1270;0.00010141;1286.05;0.399963;128
1280;9.10034e-05;1296.05;0.399841;129
1290;9.75647e-05;1306.05;0.39975;130
1300;0.00010498;1316.05;0.400085;131
1310;9.89685e-05;1326.05;0.400085;132
1320;9.7229e-05;1336.05;0.399841;133
1330;9.43909e-05;1346.05;0.399536;134
1340;9.61304e-05;1356.05;0.399841;135
1350;9.27124e-05;1366.05;0.400299;136
1360;9.60388e-05;1376.05;0.399384;137
1370;9.28345e-05;1386.05;0.399841;138
1380;9.77478e-05;1396.05;0.400208;139
1390;9.73511e-05;1406.05;0.399597;140
1400;9.21631e-05;1416.05;0.399902;141
1410;9.42993e-05;1426.05;0.399872;142
1420;9.75037e-05;1436.05;0.399841;143
1430;8.71277e-05;1446.05;0.399506;144
1440;8.70667e-05;1456.05;0.400024;145
1450;9.53064e-05;1466.05;0.399567;146
1460;9.24377e-05;1476.05;0.399902;147
1470;8.82263e-05;1486.05;0.399719;148
1480;9.40857e-05;1496.05;0.400146;149
1490;8.96606e-05;1506.05;0.399994;150
1500;8.74634e-05;1516.05;0.399872;151
1510;8.94775e-05;1526.05;0.399902;152
1520;8.69751e-05;1536.05;0.399628;153
1530;9.26819e-05;1546.05;0.39917;154
1540;8.49304e-05;1556.05;0.399994;155
1550;8.80737e-05;1566.05;0.399811;156
1560;8.86536e-05;1576.05;0.399261;157
1570;8.04443e-05;1586.05;0.400024;158
1580;8.48083e-05;1596.05;0.399384;159
1590;8.89893e-05;1606.05;0.400146;160
1600;8.71277e-05;1616.05;0.399506;161
1610;8.86841e-05;1626.05;0.400024;162
1620;8.6853e-05;1636.05;0.400024;163
1630;8.44421e-05;1646.05;0.399963;164
1640;8.09326e-05;1656.05;0.400055;165
1650;7.68433e-05;1666.05;0.399628;166
1660;8.47778e-05;1676.05;0.400024;167
1670;7.71484e-05;1686.05;0.399902;168
1680;8.08411e-05;1696.05;0.39978;169
1690;8.1604e-05;1706.05;0.399963;170
1700;8.25806e-05;1716.05;0.399872;171
1710;7.8064e-05;1726.05;0.399719;172
1720;8.40759e-05;1736.05;0.399902;173
1730;7.76978e-05;1746.05;0.399841;174
1740;7.73926e-05;1756.05;0.399384;175
1750;8.37097e-05;1766.05;0.399902;176
1760;7.67517e-05;1776.05;0.399414;177
1770;7.57141e-05;1786.05;0.399567;178
1780;8.20923e-05;1796.05;0.399872;179
1790;8.23059e-05;1806.05;0.400482;180
1800;7.94983e-05;1816.05;0.399719;181
1810;7.49207e-05;1826.05;0.400116;182
1820;7.57141e-05;1836.05;0.400269;183
1830;7.5531e-05;1846.05;0.399658;184
1840;7.38525e-05;1856.05;0.399475;185
1850;7.60193e-05;1866.05;0.399506;186
1860;7.2113e-05;1876.05;0.400024;187
1870;7.23572e-05;1886.05;0.399994;188
1880;7.5531e-05;1896.05;0.399628;189
1890;7.3822e-05;1906.05;0.400085;190
1900;7.09229e-05;1916.05;0.399689;191
1910;7.53784e-05;1926.05;0.39978;192
1920;7.13501e-05;1936.05;0.400208;193
1930;7.2998e-05;1946.05;0.399872;194
1940;6.13403e-05;1956.05;0.400391;195
1950;6.84204e-05;1966.05;0.399872;196
1960;6.79321e-05;1976.05;0.399902;197
1970;6.60706e-05;1986.05;0.399719;198
1980;6.82373e-05;1996.05;0.399628;199
1990;6.87256e-05;2006.05;0.399872;200
2000;7.14722e-05;2016.05;0.399902;201
2010;6.62537e-05;2026.05;0.399994;202
2020;6.02417e-05;2036.05;0.399628;203
2030;6.88477e-05;2046.05;0.400299;204
2040;7.06787e-05;2056.05;0.399658;205
2050;6.6864e-05;2066.05;0.399658;206
2060;6.84509e-05;2076.05;0.400116;207
2070;6.61926e-05;2086.05;0.399841;208
2080;6.46973e-05;2096.05;0.399719;209
2090;6.49109e-05;2106.05;0.399933;210
2100;6.30798e-05;2116.05;0.399841;211
2110;6.75964e-05;2126.05;0.399689;212
2120;6.09131e-05;2136.05;0.399719;213
2130;6.84509e-05;2146.05;0.400269;214
2140;6.63147e-05;2156.05;0.400269;215
2150;6.15845e-05;2166.05;0.399902;216
2160;6.30493e-05;2176.05;0.399323;217
2170;6.60706e-05;2186.05;0.399384;218
2180;6.21338e-05;2196.05;0.400085;219
2190;6.32019e-05;2206.05;0.400208;220
2200;6.41479e-05;2216.05;0.399658;221
2210;5.96619e-05;2226.05;0.399902;222
2220;6.20422e-05;2236.05;0.400055;223
2230;6.2439e-05;2246.05;0.399689;224
2240;5.8197e-05;2256.05;0.399719;225
2250;5.96619e-05;2266.05;0.399689;226
2260;6.39954e-05;2276.05;0.399811;227
2270;6.03333e-05;2286.05;0.399719;228
2280;5.70374e-05;2296.05;0.400269;229
2290;6.00891e-05;2306.05;0.39978;230
2300;6.05469e-05;2316.05;0.400269;231
2310;5.94788e-05;2326.05;0.400238;232
2320;5.76172e-05;2336.05;0.399963;233
2330;5.96313e-05;2346.05;0.400238;234
2340;5.68848e-05;2356.05;0.399628;235
2350;5.54199e-05;2366.05;0.399872;236
2360;5.66101e-05;2376.05;0.40036;237
2370;5.77087e-05;2386.05;0.399902;238
2380;5.58472e-05;2396.05;0.399963;239
2390;5.77698e-05;2406.05;0.399689;240
2400;6.01196e-05;2416.05;0.399902;241
2410;5.5542e-05;2426.05;0.399597;242
2420;5.8197e-05;2436.05;0.39975;243
2430;5.47485e-05;2446.05;0.399658;244
2440;5.71289e-05;2456.05;0.399292;245
2450;5.41992e-05;2466.05;0.399933;246
2460;5.61829e-05;2476.05;0.399475;247
2470;5.75562e-05;2486.05;0.399506;248
2480;5.18494e-05;2496.05;0.39975;249
2490;5.53894e-05;2506.05;0.399414;250
2500;5.66406e-05;2516.05;0.399628;251
2510;5.22766e-05;2526.05;0.399811;252
2520;5.34973e-05;2536.05;0.400269;253
2530;5.63965e-05;2546.05;0.399841;254